==============================================================================
SDTM DS Domain Creation
Start Time: 2026-02-08 12:17:48 
==============================================================================

Loading input data...
  - ds_raw loaded: 850 records
  - study_ct created: 164 records

Preparation of variables before mapping...
  - Needed variables generated 
Creating DS domain...
DS domain created with 850 records

Saving DS domain...
Dataset saved successfully

Dataset Summary:
tibble [850 × 12] (S3: tbl_df/tbl/data.frame)
 $ STUDYID : chr [1:850] "CDISCPILOT01" "CDISCPILOT01" "CDISCPILOT01" "CDISCPILOT01" ...
 $ DOMAIN  : chr [1:850] "DS" "DS" "DS" "DS" ...
 $ USUBJID : chr [1:850] "CDISCPILOT01-701-1015" "CDISCPILOT01-701-1015" "CDISCPILOT01-701-1015" "CDISCPILOT01-701-1023" ...
 $ DSSEQ   : int [1:850] 1 2 3 1 2 3 4 1 2 3 ...
 $ DSTERM  : chr [1:850] "Randomized" "Protocol Completed" "Final Lab Visit" "Randomized" ...
 $ DSDECOD : chr [1:850] "RANDOMIZED" "COMPLETED" "FINAL LAB VISIT" "RANDOMIZED" ...
 $ DSCAT   : chr [1:850] "PROTOCOL MILESTONE" "DISPOSITION EVENT" "OTHER EVENT" "PROTOCOL MILESTONE" ...
 $ VISITNUM: chr [1:850] "3" "13" "13" "3" ...
 $ VISIT   : chr [1:850] "BASELINE" "WEEK 26" "WEEK 26" "BASELINE" ...
 $ DSDTC   : 'iso8601' chr [1:850] "2014-01-02" "2014-07-02" "2014-07-02" "2012-08-05" ...
 $ DSSTDTC : 'iso8601' chr [1:850] "2014-01-02" "2014-07-02" "2014-07-02" "2012-08-05" ...
 $ DSSTDY  : num [1:850] 1 182 182 1 29 29 198 1 180 180 ...
NULL

   STUDYID             DOMAIN            USUBJID              DSSEQ          DSTERM            DSDECOD             DSCAT          
 Length:850         Length:850         Length:850         Min.   :1.000   Length:850         Length:850         Length:850        
 Class :character   Class :character   Class :character   1st Qu.:1.000   Class :character   Class :character   Class :character  
 Mode  :character   Mode  :character   Mode  :character   Median :2.000   Mode  :character   Mode  :character   Mode  :character  
                                                          Mean   :2.024                                                           
                                                          3rd Qu.:3.000                                                           
                                                          Max.   :4.000                                                           
                                                                                                                                  
   VISITNUM            VISIT              DSDTC             DSSTDTC              DSSTDY      
 Length:850         Length:850         Length:850         Length:850         Min.   :-16.00  
 Class :character   Class :character   Class :iso8601     Class :iso8601     1st Qu.:  1.00  
 Mode  :character   Mode  :character   Mode  :character   Mode  :character   Median : 62.00  
                                                                             Mean   : 85.03  
                                                                             3rd Qu.:182.00  
                                                                             Max.   :286.00  
                                                                             NA's   :52      

========================================
Script completed successfully!
Completion time: 2026-02-08 12:17:50 
========================================
